LabVIEW Measurement	
Writer_Version	2
Reader_Version	2
Separator	Tab
Decimal_Separator	.
Multi_Headings	No
X_Columns	One
Time_Pref	Absolute
Operator	Mark
Date	2019/07/23
Time	10:58:41.4189996719360351563
***End_of_Header***	
	
Channels	4				
Samples	1	1	1	1	
Date	2019/07/23	2019/07/23	2019/07/23	2019/07/23	
Time	10:58:41.4609999656677246094	10:58:41.4189996719360351563	10:58:41.4779996871948242188	10:58:41.4229998588562011719	
X_Dimension	Time	Time	Time	Time	
X0	0.0000000000000000E+0	0.0000000000000000E+0	0.0000000000000000E+0	0.0000000000000000E+0	
Delta_X	1.000000	1.000000	1.000000	1.000000	
***End_of_Header***					
X_Value	FieldPoint\FP @ COM1\cFP-AI-110 @1\Channel 0 (Scaled)	FieldPoint\FP @ COM1\cFP-AI-110 @1\Channel 1 (Scaled)	FieldPoint\FP @ COM1\cFP-AI-110 @1\Channel 2 (Scaled)	FieldPoint\FP @ COM1\cFP-AI-110 @1\Channel 3 (Scaled)	Comment
0.000000	0.159011	0.189480	19.830379	19.748812
2.937000	0.159011	0.189163	19.830379	19.748493
5.937000	0.159011	0.189480	19.830063	19.748493
8.937000	0.159011	0.189480	19.830379	19.748493
11.945000	0.159011	0.189480	19.830063	19.748493
14.950000	0.159011	0.189480	19.830379	19.748177
17.937000	0.158376	0.189480	19.830379	19.748177
21.042000	0.158376	0.189480	19.830379	19.748177
23.949999	0.158376	0.189480	19.830063	19.747860
26.937000	0.158376	0.189480	19.830379	19.747860
29.951000	0.158376	0.189480	19.830063	19.748177
32.938000	0.158376	0.189480	19.830063	19.747541
35.942000	0.158376	0.189480	19.830063	19.747860
38.942000	0.158376	0.189480	19.830063	19.747860
41.972000	0.158376	0.189480	19.830063	19.747541
44.943000	0.158376	0.189480	19.830063	19.746906
47.939000	0.158376	0.189480	19.829428	19.747541
50.939000	0.158376	0.189163	19.829428	19.746906
53.940000	0.158376	0.189163	19.829428	19.746906
56.948000	0.158376	0.189480	19.829428	19.746906
59.948000	0.158376	0.189480	19.829428	19.746590
62.940000	0.158376	0.189163	19.829428	19.746906
66.012001	0.158376	0.189480	19.829428	19.746590
68.941000	0.158376	0.189480	19.829111	19.746590
71.941000	0.158376	0.189480	19.829428	19.746590
74.963000	0.158376	0.189163	19.829111	19.746590
77.941000	0.158376	0.189163	19.829111	19.746590
81.016000	0.158376	0.189480	19.829111	19.746590
83.953000	0.158376	0.189163	19.829111	19.746590
86.941000	0.158376	0.189480	19.828793	19.746273
90.029000	0.158376	0.189480	19.829111	19.746273
92.950000	0.158376	0.189163	19.828793	19.746273
95.942000	0.158376	0.189480	19.828793	19.745955
98.942000	0.158376	0.189480	19.829111	19.745955
101.941000	0.158376	0.189163	19.828476	19.745955
104.942000	0.158376	0.189163	19.828793	19.745955
107.946000	0.158059	0.189163	19.828793	19.745955
110.967000	0.158376	0.189163	19.828476	19.745955
113.956000	0.158059	0.189163	19.828793	19.745955
116.959000	0.158376	0.189163	19.828793	19.745955
119.951000	0.158376	0.189163	19.828476	19.745638
122.943000	0.158059	0.189163	19.828476	19.745638
125.967000	0.158059	0.189163	19.828476	19.745955
129.015000	0.158059	0.189163	19.828476	19.745638
131.953000	0.158059	0.189163	19.828476	19.745638
134.953000	0.158059	0.189480	19.828476	19.745638
137.945000	0.158059	0.189163	19.828476	19.745638
140.949000	0.158059	0.189163	19.828157	19.745003
144.039000	0.158059	0.189163	19.828157	19.745003
146.946001	0.158059	0.189163	19.828157	19.745003
149.967000	0.158059	0.189163	19.827841	19.745003
152.948000	0.158059	0.189163	19.828157	19.745003
155.958000	0.158059	0.189163	19.828157	19.744686
158.951000	0.158059	0.189163	19.827841	19.744686
161.955000	0.158059	0.189163	19.827841	19.744686
164.959000	0.158059	0.189163	19.827841	19.744686
167.951000	0.158059	0.189163	19.827841	19.744368
170.959000	0.158059	0.189163	19.827206	19.744368
173.960001	0.158059	0.189163	19.827206	19.744368
176.960001	0.158059	0.189163	19.827206	19.744368
179.960000	0.158059	0.189163	19.827206	19.744368
182.960999	0.158059	0.189163	19.827206	19.744368
185.960000	0.158059	0.189163	19.827206	19.744051
188.960999	0.158059	0.189163	19.827206	19.744051
191.964000	0.158059	0.189163	19.826889	19.744051
194.977000	0.158059	0.189163	19.826889	19.744368
197.958000	0.157742	0.189163	19.826889	19.744368
200.954000	0.158059	0.189163	19.826889	19.744051
203.995000	0.157742	0.189163	19.826889	19.744051
206.954000	0.158059	0.189163	19.826889	19.744051
209.954000	0.157742	0.189163	19.826889	19.743732
212.955000	0.158059	0.189163	19.826889	19.744051
215.963000	0.158059	0.189163	19.826889	19.743732
218.964000	0.157742	0.189163	19.826889	19.744051
221.964000	0.157742	0.189163	19.826571	19.743732
224.968000	0.157742	0.189163	19.826571	19.743732
227.968000	0.157742	0.189163	19.826889	19.743732
230.956000	0.158059	0.189163	19.826571	19.742781
233.956000	0.157742	0.189163	19.826889	19.742781
236.964000	0.157742	0.188528	19.826571	19.742781
239.968000	0.157742	0.189163	19.826571	19.742781
242.973000	0.157742	0.189163	19.826571	19.742781
245.960000	0.158059	0.188528	19.826571	19.742781
248.972000	0.157742	0.189163	19.826571	19.742464
251.956000	0.157742	0.189163	19.826571	19.742781
254.955000	0.157742	0.189163	19.826571	19.742464
257.955000	0.157742	0.188528	19.826254	19.742464
260.965000	0.157742	0.189163	19.826254	19.742464
264.067000	0.157742	0.189163	19.826254	19.742464
267.060000	0.157742	0.189163	19.826254	19.742464
269.975000	0.157742	0.189163	19.826571	19.742146
273.056000	0.157742	0.188528	19.825937	19.741829
276.049000	0.157742	0.189163	19.826254	19.742146
278.964001	0.157742	0.188528	19.825937	19.742146
282.055000	0.157742	0.188528	19.826254	19.742146
284.968999	0.157742	0.188528	19.825937	19.742146
287.960999	0.157742	0.188528	19.825937	19.741829
291.055000	0.157742	0.188528	19.825937	19.742146
293.962000	0.157742	0.188528	19.825937	19.741829
297.041000	0.157742	0.189163	19.825937	19.742146
299.964000	0.157742	0.188528	19.825937	19.742146
302.973000	0.157424	0.188528	19.826254	19.741829
306.001000	0.157742	0.188528	19.825937	19.741829
309.077000	0.157742	0.188528	19.825937	19.741829
311.979000	0.157742	0.188528	19.825302	19.742146
314.968000	0.157742	0.188528	19.825302	19.741829
317.972000	0.157742	0.189163	19.825302	19.742146
320.979000	0.157742	0.188528	19.825937	19.741829
324.050000	0.157742	0.188528	19.825937	19.741829
327.046000	0.157424	0.188528	19.825302	19.741829
330.040000	0.157424	0.188528	19.825937	19.741829
333.052001	0.157742	0.188528	19.825302	19.741512
335.978000	0.157742	0.188528	19.825302	19.741512
339.032000	0.157742	0.188528	19.825302	19.741512
341.982000	0.157424	0.188528	19.825302	19.741512
345.080000	0.157424	0.188528	19.824984	19.741512
347.991000	0.157424	0.188528	19.825302	19.741512
350.981000	0.157424	0.188528	19.824984	19.740877
353.983000	0.157424	0.188528	19.824984	19.740877
356.970000	0.157424	0.188528	19.824984	19.740877
360.067000	0.157424	0.188528	19.824984	19.740877
363.049000	0.157424	0.188528	19.824984	19.740559
366.033000	0.157424	0.188528	19.824984	19.740559
368.983000	0.157424	0.188528	19.824984	19.740559
371.995000	0.157424	0.188528	19.824984	19.740559
375.059000	0.157424	0.188528	19.824984	19.740877
378.002000	0.157424	0.188528	19.824667	19.740559
381.006000	0.157424	0.188528	19.824984	19.740559
384.044000	0.157424	0.188528	19.824667	19.740559
387.069000	0.157424	0.188528	19.824667	19.740559
389.984000	0.157424	0.188528	19.824667	19.740559
392.984000	0.157424	0.188528	19.824350	19.740559
396.083000	0.157424	0.188528	19.824667	19.740559
398.989000	0.157424	0.188528	19.824667	19.740559
401.978000	0.157424	0.188528	19.824667	19.740242
405.011000	0.157424	0.188528	19.824350	19.740242
408.053000	0.157424	0.188528	19.824350	19.740242
411.000000	0.157424	0.188528	19.824350	19.740242
414.049000	0.157424	0.188528	19.824667	19.740242
416.985000	0.157424	0.188528	19.824350	19.740242
420.060000	0.157424	0.188528	19.824350	19.739925
423.062000	0.157424	0.188528	19.824350	19.740242
425.982000	0.157107	0.188211	19.824350	19.739925
429.087000	0.157107	0.188528	19.824667	19.740242
432.028000	0.157107	0.188211	19.824350	19.740242
435.071001	0.157424	0.188528	19.824350	19.739925
437.986001	0.157107	0.188528	19.824032	19.739925
441.045000	0.157107	0.188528	19.824032	19.739925
443.994000	0.157424	0.188211	19.824032	19.739925
447.045000	0.157107	0.188528	19.824350	19.739925
449.985000	0.157107	0.188528	19.824032	19.739925
452.998000	0.157424	0.188211	19.824032	19.739925
455.994000	0.157107	0.188528	19.824032	19.739925
459.053000	0.157107	0.188528	19.824032	19.739607
461.999000	0.157424	0.188528	19.824032	19.739607
464.999000	0.157424	0.188211	19.824032	19.739607
467.994000	0.157107	0.188528	19.824032	19.739925
470.986000	0.157424	0.188528	19.824032	19.739925
473.994000	0.157107	0.188528	19.824032	19.739925
476.986000	0.157107	0.188528	19.823397	19.739607
479.998000	0.157107	0.188211	19.823397	19.739607
482.998000	0.157107	0.188211	19.823397	19.738972
485.994000	0.157107	0.188528	19.823397	19.739607
488.998000	0.157107	0.188528	19.823397	19.739607
492.086000	0.157107	0.188211	19.823397	19.739607
494.995000	0.157107	0.188528	19.823397	19.739607
497.999000	0.157107	0.188211	19.823397	19.739607
501.085000	0.157107	0.188211	19.823397	19.738972
504.096000	0.157107	0.188211	19.823397	19.738972
507.034000	0.157107	0.188528	19.823397	19.739607
509.989000	0.157107	0.188211	19.823397	19.738972
513.028000	0.157107	0.188211	19.823397	19.738972
515.989000	0.157107	0.188528	19.823397	19.738972
518.993000	0.157107	0.188528	19.823397	19.738972
521.989000	0.157107	0.188528	19.823397	19.738972
524.997000	0.157107	0.188211	19.824032	19.738972
528.002000	0.157107	0.188211	19.823397	19.738972
531.007000	0.157107	0.188528	19.823397	19.738972
533.998000	0.157107	0.188211	19.823397	19.738972
536.990000	0.157107	0.188211	19.823397	19.738972
539.990001	0.157107	0.188211	19.823080	19.738655
543.034999	0.157107	0.188211	19.823080	19.738655
545.999000	0.157107	0.188211	19.823397	19.738655
548.999000	0.157107	0.188211	19.823080	19.738655
551.999000	0.157107	0.188528	19.823080	19.738655
555.004000	0.157107	0.188211	19.823080	19.738655
558.001000	0.157107	0.188211	19.823080	19.738655
561.005001	0.157107	0.188211	19.822763	19.738338
563.993001	0.157107	0.188528	19.823080	19.738655
567.003000	0.156789	0.188211	19.823080	19.738655
569.994000	0.157107	0.188211	19.823080	19.738655
573.003000	0.157107	0.188211	19.822763	19.738338
576.002000	0.157107	0.188211	19.823080	19.738338
579.011000	0.157107	0.188211	19.822763	19.738020
582.027000	0.156789	0.188211	19.823080	19.738338
585.002000	0.156789	0.188211	19.823080	19.738338
588.002000	0.156789	0.188528	19.823080	19.738338
591.085001	0.157107	0.188211	19.822763	19.738338
594.001999	0.156789	0.188211	19.822763	19.738338
597.015000	0.156789	0.188211	19.822763	19.738338
600.007000	0.156789	0.188528	19.822763	19.738020
603.002000	0.156789	0.188211	19.822763	19.738020
606.007000	0.156789	0.188211	19.822445	19.738020
609.007000	0.156789	0.188211	19.822763	19.738338
611.994000	0.156789	0.188211	19.822445	19.738020
615.032000	0.156789	0.188211	19.822763	19.738020
617.994000	0.157107	0.188211	19.822763	19.738020
621.060999	0.156789	0.188211	19.822445	19.738020
624.001999	0.156789	0.188211	19.822445	19.738020
627.002000	0.156789	0.188211	19.822128	19.738020
629.994000	0.157107	0.188211	19.822445	19.738020
633.011000	0.156789	0.188211	19.822128	19.738020
636.002000	0.156789	0.188211	19.822128	19.737703
639.027000	0.156789	0.188211	19.822128	19.738020
642.002000	0.156789	0.188211	19.822128	19.737703
645.007000	0.157107	0.188211	19.822128	19.738020
648.008999	0.156789	0.188211	19.822128	19.737703
650.994000	0.156789	0.188211	19.822128	19.737703
654.006000	0.156789	0.188211	19.822128	19.737703
657.002000	0.156789	0.188211	19.822128	19.737703
659.995000	0.156789	0.188211	19.822128	19.737703
663.002000	0.156789	0.188211	19.822128	19.737703
666.012001	0.156789	0.188211	19.822128	19.737703
668.999000	0.156789	0.188211	19.822128	19.737385
672.044000	0.156789	0.187893	19.822128	19.737385
675.055000	0.156789	0.188211	19.822128	19.737703
678.083000	0.156789	0.188211	19.822128	19.736752
681.004000	0.156789	0.188211	19.821810	19.737385
683.996000	0.156789	0.188211	19.821810	19.737385
687.004000	0.156789	0.188211	19.821810	19.737385
690.016000	0.156789	0.188211	19.821810	19.737385
693.004000	0.156789	0.188211	19.821810	19.737385
696.004000	0.156789	0.188211	19.821810	19.737385
699.005000	0.156789	0.188211	19.821810	19.737385
702.064000	0.156789	0.188211	19.821810	19.737385
705.023000	0.156789	0.188211	19.821810	19.736752
708.011000	0.156789	0.188211	19.821810	19.736752
711.077000	0.156789	0.188211	19.821177	19.736752
713.998000	0.156789	0.188211	19.821810	19.736752
717.011000	0.156155	0.188211	19.821810	19.737385
720.012001	0.156789	0.188211	19.820858	19.736752
723.007000	0.156789	0.188211	19.821177	19.736752
726.008000	0.156789	0.188211	19.821177	19.736752
729.004000	0.156789	0.188211	19.821177	19.736752
732.024000	0.156789	0.188211	19.820858	19.736433
735.000000	0.156789	0.188211	19.821177	19.736752
738.009000	0.156155	0.188211	19.821177	19.736752
741.008000	0.156789	0.188211	19.821177	19.736752
744.004000	0.156155	0.187893	19.821177	19.736752
747.016001	0.156155	0.188211	19.820858	19.736752
750.016000	0.156789	0.188211	19.820858	19.736433
753.008000	0.156155	0.188211	19.821177	19.736433
756.014000	0.156155	0.188211	19.821177	19.736433
759.009000	0.156155	0.188211	19.821177	19.736752
762.023000	0.156155	0.188211	19.821177	19.736433
765.014000	0.156155	0.187893	19.820858	19.736433
768.011000	0.156155	0.188211	19.821177	19.736433
771.015000	0.156155	0.187893	19.820858	19.736433
774.002000	0.156155	0.188211	19.820541	19.736433
777.034999	0.156155	0.188211	19.820858	19.736433
780.006000	0.156155	0.187893	19.820858	19.736433
783.010000	0.156155	0.188211	19.820858	19.736433
786.019000	0.156155	0.188211	19.820858	19.736116
789.047000	0.156155	0.188211	19.820858	19.736433
792.010000	0.156155	0.187893	19.820541	19.736433
795.015000	0.156155	0.188211	19.820858	19.736433
798.002000	0.156155	0.188211	19.820858	19.736433
801.072000	0.156155	0.187893	19.820858	19.736433
804.018000	0.156155	0.188211	19.820858	19.736116
807.002000	0.156789	0.188211	19.820858	19.736116
810.010000	0.156155	0.188211	19.820541	19.736116
813.006000	0.156155	0.187893	19.820541	19.736116
816.032000	0.156155	0.187893	19.820858	19.736116
819.010000	0.156155	0.188211	19.820541	19.736116
822.012001	0.156155	0.187893	19.820858	19.736116
825.012001	0.156155	0.187893	19.820541	19.736116
828.029000	0.156155	0.187893	19.820541	19.736116
831.021000	0.156155	0.188211	19.820541	19.736116
834.012000	0.156155	0.188211	19.820541	19.736116
837.012000	0.156155	0.188211	19.820223	19.735798
840.017000	0.156155	0.187893	19.820223	19.735798
843.012000	0.156155	0.187893	19.820223	19.735798
846.101000	0.155837	0.187893	19.820223	19.735798
849.013000	0.156155	0.187893	19.820223	19.735798
852.006000	0.156155	0.188211	19.820541	19.735798
855.043000	0.156155	0.187893	19.820541	19.735798
858.043000	0.156155	0.187893	19.820223	19.736116
861.014000	0.156155	0.187893	19.820223	19.736116
864.010000	0.156155	0.188211	19.820223	19.735798
867.018000	0.156155	0.187893	19.820223	19.735798
870.006000	0.156155	0.187893	19.820223	19.735798
873.118001	0.155837	0.187893	19.820223	19.735798
876.073000	0.156155	0.187893	19.820223	19.735481
879.010000	0.155837	0.187893	19.820223	19.735798
882.018000	0.156155	0.188211	19.820223	19.735798
885.019000	0.156155	0.187893	19.820223	19.735798
888.022000	0.156155	0.187893	19.820541	19.735798
891.005000	0.156155	0.187893	19.820223	19.735798
894.094000	0.156155	0.187893	19.820541	19.735798
897.014000	0.156155	0.187893	19.820541	19.735481
900.006000	0.155837	0.187893	19.820223	19.735481
903.014000	0.155837	0.187893	19.820223	19.735798
906.024000	0.155837	0.187893	19.819906	19.735481
909.070000	0.155837	0.187893	19.819906	19.735481
912.085000	0.156155	0.187893	19.819906	19.735481
915.100000	0.155837	0.187893	19.819906	19.735481
918.023000	0.156155	0.187893	19.820223	19.735481
921.015000	0.155837	0.187893	19.820223	19.735481
924.016000	0.155837	0.187893	19.819906	19.735798
927.015000	0.155837	0.187893	19.819906	19.735798
930.015000	0.155837	0.187893	19.819906	19.735481
933.011000	0.156155	0.187893	19.819906	19.735481
936.015000	0.155837	0.187893	19.819271	19.735481
939.015000	0.155837	0.187893	19.820223	19.735481
942.092000	0.155837	0.187893	19.819906	19.734846
945.007000	0.155837	0.187893	19.819906	19.735481
948.036000	0.155837	0.187893	19.820223	19.735481
951.007000	0.156155	0.187893	19.819906	19.735798
954.016001	0.156155	0.187893	19.819906	19.735481
957.016001	0.155837	0.187893	19.819906	19.735481
960.024000	0.155837	0.187893	19.819906	19.735481
963.119999	0.155837	0.187893	19.819906	19.735481
966.021000	0.155837	0.187893	19.819906	19.735481
969.016000	0.155837	0.187893	19.819906	19.735481
972.037000	0.155837	0.187893	19.819906	19.734846
975.007000	0.155837	0.187893	19.819906	19.735481
978.016000	0.155837	0.187893	19.819906	19.735481
981.017000	0.155837	0.187576	19.819906	19.735481
984.100000	0.155837	0.187893	19.819906	19.734846
987.121000	0.155837	0.187893	19.819906	19.735481
990.017000	0.155837	0.187893	19.819271	19.734846
993.017000	0.155837	0.187893	19.819271	19.735481
996.043000	0.155837	0.187893	19.819271	19.734846
999.017000	0.155837	0.187893	19.819271	19.734846
1002.026000	0.155837	0.187893	19.819271	19.734846
1005.022000	0.155837	0.187893	19.819271	19.734846
1008.083000	0.155837	0.187893	19.819271	19.734846
1011.017000	0.155837	0.187893	19.819271	19.734846
1014.010000	0.155837	0.187893	19.819906	19.734846
1017.010000	0.155837	0.187893	19.819271	19.734846
1020.085000	0.155837	0.187893	19.818954	19.734529
1023.094000	0.155837	0.187576	19.819271	19.734529
1026.024000	0.155837	0.187893	19.819271	19.734846
1029.020000	0.155837	0.187893	19.819271	19.734846
1032.095000	0.155837	0.187893	19.818954	19.734529
1035.012001	0.155837	0.187893	19.819271	19.734846
1038.020000	0.155837	0.187893	19.819271	19.734529
1041.028000	0.155837	0.187893	19.819271	19.734846
1044.020000	0.155837	0.187893	19.819271	19.734846
1047.038000	0.155837	0.187893	19.819271	19.734529
1050.045000	0.155837	0.187576	19.819271	19.734529
1053.020000	0.155520	0.187576	19.819271	19.734529
1056.016000	0.155520	0.187893	19.819271	19.734529
1059.020000	0.155837	0.187893	19.819271	19.734529
1062.020999	0.155837	0.187576	19.818954	19.734529
1065.013000	0.155837	0.187576	19.819271	19.734529
1068.035000	0.155520	0.187893	19.818954	19.734529
1071.027000	0.155837	0.187893	19.818954	19.734529
1074.022000	0.155837	0.187893	19.819271	19.734529
1077.015000	0.155520	0.187893	19.819271	19.734529
1080.023000	0.155520	0.187893	19.818954	19.734529
1083.023000	0.155520	0.187893	19.818954	19.734529
1086.074000	0.155837	0.187576	19.818954	19.734529
1089.033000	0.155837	0.187893	19.818954	19.734529
1092.032000	0.155837	0.187893	19.818954	19.734211
1095.096000	0.155837	0.187893	19.818954	19.734211
1098.037000	0.155837	0.187576	19.818954	19.734529
1101.024000	0.155837	0.187576	19.818636	19.734529
1104.104001	0.155837	0.187893	19.818954	19.734211
1107.025000	0.155520	0.187893	19.818954	19.734211
1110.025000	0.155837	0.187893	19.818954	19.734211
1113.092000	0.155837	0.187893	19.818954	19.734211
1116.025000	0.155837	0.187576	19.818954	19.734211
1119.021000	0.155520	0.187893	19.818954	19.734211
1122.029000	0.155837	0.187893	19.818954	19.734211
1125.030000	0.155837	0.187576	19.818954	19.733894
1128.025000	0.155837	0.187893	19.818954	19.733894
1131.025000	0.155837	0.187893	19.818954	19.733894
1134.017000	0.155837	0.187576	19.818954	19.733894
1137.025000	0.155837	0.187576	19.818636	19.733894
1140.118000	0.155837	0.187893	19.818954	19.733894
1143.032000	0.155837	0.187893	19.818636	19.733894
1146.019000	0.155520	0.187576	19.818636	19.733894
1149.040000	0.155520	0.187576	19.818636	19.733894
1152.018000	0.155520	0.187893	19.818636	19.733894
1155.057000	0.155520	0.187893	19.818636	19.733894
1158.032000	0.155520	0.187576	19.818636	19.733894
1161.036000	0.155520	0.187893	19.818636	19.733894
1164.027000	0.155520	0.187576	19.818636	19.733894
1167.057000	0.155837	0.187893	19.818636	19.733576
1170.028000	0.155520	0.187576	19.818636	19.733894
1173.123000	0.155520	0.187576	19.818319	19.733894
1176.029000	0.155520	0.187576	19.818636	19.733894
1179.032000	0.155520	0.187893	19.818319	19.733576
1182.029000	0.155520	0.187576	19.818636	19.733576
1185.033000	0.155520	0.187576	19.818636	19.733576
1188.034000	0.155837	0.187576	19.818636	19.733576
1191.117000	0.155520	0.187576	19.818636	19.733894
1194.030000	0.155520	0.187576	19.818319	19.733576
1197.031000	0.155837	0.187576	19.818319	19.733576
1200.030000	0.155837	0.187893	19.818319	19.733576
1203.039000	0.155520	0.187576	19.818319	19.733576
1206.034000	0.155520	0.187576	19.818319	19.733576
1209.023000	0.155520	0.187576	19.818319	19.733576
1212.023000	0.155520	0.187576	19.818319	19.733576
1215.032000	0.155520	0.187576	19.818319	19.733576
1218.037000	0.155520	0.187576	19.818319	19.733576
1221.033000	0.155520	0.187576	19.818636	19.733894
1224.023000	0.155520	0.187576	19.818319	19.733894
1227.032000	0.155520	0.187576	19.818319	19.733576
1230.037000	0.155520	0.187576	19.818319	19.733576
1233.034000	0.155520	0.187576	19.818319	19.732943
1236.026000	0.155520	0.187576	19.818319	19.733576
1239.026000	0.155520	0.187576	19.818319	19.733576
1242.034000	0.155520	0.187576	19.818319	19.732943
1245.105999	0.155520	0.187576	19.818319	19.733576
1248.031000	0.155520	0.187576	19.818003	19.733576
1251.036000	0.155520	0.187576	19.818319	19.732943
1254.028000	0.155520	0.187576	19.818003	19.732943
1257.028000	0.155520	0.187576	19.818003	19.732943
1260.028000	0.155520	0.187576	19.818003	19.732943
1263.029000	0.155520	0.187576	19.818003	19.732943
1266.029000	0.155520	0.187576	19.818319	19.733576
1269.029000	0.155520	0.187576	19.818003	19.732943
1272.037000	0.155520	0.187576	19.818003	19.732943
1275.041999	0.155520	0.187576	19.817368	19.733576
1278.029000	0.155520	0.187576	19.818003	19.732943
1281.028000	0.155520	0.187576	19.818003	19.733576
1284.029000	0.155520	0.187576	19.818003	19.732943
1287.042000	0.155520	0.187576	19.817368	19.732943
1290.038001	0.155520	0.187576	19.818003	19.732943
1293.034000	0.155520	0.187576	19.817368	19.732943
1296.030000	0.155520	0.187576	19.818003	19.732943
1299.038000	0.155520	0.187576	19.818003	19.732624
1302.043000	0.155520	0.187576	19.818003	19.732943
1305.030000	0.155520	0.187576	19.818003	19.732943
1308.106000	0.155520	0.187576	19.818319	19.732943
1311.039000	0.155520	0.187576	19.818003	19.732624
1314.039000	0.155520	0.187576	19.818319	19.732624
1317.076000	0.155520	0.187576	19.818003	19.732624
1320.118001	0.155520	0.187576	19.818003	19.732624
1323.064000	0.155520	0.187576	19.818003	19.732943
1326.039000	0.155520	0.187576	19.818003	19.732624
1329.131000	0.155520	0.187576	19.817368	19.732624
1332.031000	0.155203	0.187576	19.818003	19.732624
1335.031000	0.155520	0.187576	19.817368	19.732624
1338.031000	0.155203	0.187576	19.818003	19.732624
1341.039000	0.155520	0.187576	19.818003	19.732624
1344.043000	0.155520	0.187576	19.818003	19.732624
1347.030999	0.155203	0.187576	19.818003	19.732624
1350.040000	0.155203	0.187576	19.818003	19.732624
1353.041000	0.155203	0.187576	19.818003	19.732624
1356.088000	0.155203	0.187576	19.818003	19.732624
1359.117000	0.155520	0.187576	19.817368	19.732624
1362.041000	0.155520	0.187576	19.817368	19.732624
1365.041000	0.155203	0.187576	19.817368	19.732307
1368.045001	0.155203	0.187576	19.817368	19.732307
1371.041000	0.155520	0.187576	19.817368	19.732307
1374.109000	0.155520	0.187576	19.817368	19.732307
1377.041000	0.155520	0.187576	19.817368	19.732624
1380.041000	0.155203	0.187576	19.817368	19.732624
1383.033000	0.155203	0.187576	19.817368	19.732624
1386.041000	0.155520	0.187576	19.817049	19.732624
1389.041000	0.155520	0.187576	19.817368	19.732307
1392.041000	0.155203	0.187259	19.817049	19.732624
1395.032000	0.155520	0.187576	19.817368	19.732307
1398.041000	0.155203	0.187576	19.817049	19.732307
1401.034000	0.155520	0.187576	19.817368	19.732307
1404.051000	0.155203	0.187259	19.817368	19.732307
1407.067000	0.155203	0.187576	19.817368	19.732307
1410.042000	0.155203	0.187576	19.817368	19.732307
1413.042000	0.155203	0.187576	19.817049	19.732624
1416.034000	0.155203	0.187576	19.817049	19.732307
1419.035000	0.155520	0.187576	19.817368	19.732307
1422.035000	0.155203	0.187576	19.817368	19.732624
1425.034999	0.155203	0.187576	19.817049	19.732307
1428.043000	0.155203	0.187576	19.817368	19.732307
1431.043000	0.155203	0.187576	19.817049	19.732307
1434.036000	0.155203	0.187576	19.817049	19.732307
1437.048000	0.155203	0.187259	19.817049	19.732307
1440.035000	0.155520	0.187576	19.817049	19.732624
1443.053000	0.155203	0.187576	19.817049	19.732307
1446.061000	0.155203	0.187259	19.817049	19.732307
1449.039000	0.155203	0.187259	19.817049	19.732307
1452.056000	0.155203	0.187576	19.817049	19.732307
1455.047000	0.155520	0.187576	19.817049	19.732624
1458.047000	0.155203	0.187576	19.817049	19.732307
1461.060000	0.155203	0.187259	19.816732	19.732307
1464.048000	0.155203	0.187576	19.817049	19.732307
1467.048000	0.155203	0.187259	19.816732	19.732624
1470.041000	0.155203	0.187259	19.817049	19.732307
1473.143000	0.155203	0.187576	19.817049	19.732307
1476.113000	0.155520	0.187259	19.817049	19.732307
1479.109000	0.155203	0.187576	19.817049	19.732307
1482.051000	0.155203	0.187259	19.816732	19.731989
1485.051000	0.155203	0.187576	19.816732	19.732307
1488.051000	0.155203	0.187259	19.816732	19.732307
1491.052000	0.155203	0.187259	19.816732	19.732307
1494.043000	0.155203	0.187259	19.816732	19.731989
1497.147000	0.155203	0.187259	19.816732	19.732307
1500.150000	0.155203	0.187259	19.816732	19.732307
1503.053000	0.155203	0.187259	19.816732	19.732307
1506.119999	0.155203	0.187576	19.816732	19.732307
1509.054000	0.155203	0.187259	19.816732	19.732307
1512.045000	0.155203	0.187259	19.816732	19.732307
1515.118000	0.155203	0.187259	19.816416	19.731989
1518.047000	0.155203	0.187259	19.816732	19.732307
1521.060000	0.155203	0.187259	19.816732	19.731989
1524.127000	0.155203	0.187259	19.816416	19.731989
1527.077000	0.155203	0.187259	19.816732	19.731989
1530.049000	0.155203	0.187259	19.816416	19.731989
1533.060999	0.155203	0.187259	19.816416	19.731989
1536.061000	0.155203	0.187259	19.816416	19.732307
1539.058000	0.154885	0.187259	19.816416	19.731989
1542.058000	0.155203	0.187259	19.816732	19.731989
1545.155000	0.155203	0.187259	19.816732	19.731989
1548.062000	0.155203	0.187259	19.816732	19.731989
1551.059000	0.154885	0.187259	19.816416	19.731989
1554.051000	0.155203	0.187259	19.816416	19.731989
1557.159999	0.155203	0.187259	19.816416	19.731989
1560.067999	0.155203	0.187259	19.816416	19.731672
1563.060000	0.154885	0.187259	19.816416	19.731989
1566.071000	0.155203	0.187259	19.816416	19.731989
1569.067000	0.155203	0.187259	19.816416	19.731989
1572.051000	0.155203	0.187259	19.816416	19.731989
1575.063000	0.154885	0.187259	19.816416	19.731672
1578.060000	0.155203	0.187259	19.816097	19.731672
1581.097000	0.155203	0.187259	19.816416	19.731672
1584.059000	0.155203	0.187259	19.816097	19.731672
1587.157000	0.155203	0.187259	19.816097	19.731672
1590.051000	0.155203	0.187259	19.816097	19.731672
1593.068000	0.155203	0.187259	19.815781	19.731672
1596.051000	0.154885	0.187259	19.816097	19.731356
1599.059000	0.154885	0.187259	19.816097	19.731356
1602.059000	0.154885	0.187259	19.816097	19.731672
1605.051000	0.155203	0.187259	19.816097	19.731672
1608.060000	0.154885	0.187259	19.816097	19.731356
1611.067999	0.154885	0.187259	19.816097	19.731672
1614.061000	0.155203	0.187259	19.816097	19.731672
1617.057000	0.154885	0.187259	19.816097	19.731672
1620.057000	0.154885	0.187259	19.816097	19.731672
1623.066000	0.155203	0.187259	19.816097	19.731672
1626.133000	0.154885	0.187259	19.816097	19.731672
1629.053000	0.155203	0.187259	19.816416	19.731672
1632.062000	0.154885	0.187259	19.816097	19.731356
1635.058000	0.155203	0.187259	19.816097	19.731672
1638.063000	0.155203	0.187259	19.816097	19.731356
1641.062000	0.154885	0.187259	19.816097	19.731356
1644.062000	0.155203	0.187259	19.816097	19.731356
1647.062000	0.154885	0.187259	19.816097	19.731356
1650.062000	0.154885	0.187259	19.816097	19.731356
1653.062000	0.154885	0.187259	19.816097	19.730721
1656.054000	0.154885	0.187259	19.816097	19.731672
1659.062000	0.155203	0.187259	19.816097	19.731356
1662.062000	0.155203	0.187259	19.816097	19.731356
1665.063000	0.155203	0.187259	19.816097	19.731356
1668.054000	0.154885	0.187259	19.815781	19.731356
1671.054000	0.154885	0.187259	19.815781	19.731356
1674.062000	0.154885	0.187259	19.816097	19.731356
1677.062000	0.154885	0.187259	19.816097	19.731356
1680.067000	0.154885	0.187259	19.815781	19.731356
1683.126000	0.154885	0.187259	19.816097	19.731356
1686.079000	0.154885	0.187259	19.815781	19.731356
1689.063000	0.154885	0.187259	19.815781	19.731356
1692.062000	0.154885	0.187259	19.815781	19.731356
1695.082000	0.154885	0.187259	19.815781	19.731356
1698.062000	0.154885	0.187259	19.815781	19.731356
1701.053000	0.154885	0.187259	19.815781	19.731356
1704.054000	0.154885	0.187259	19.816097	19.730721
1707.066000	0.154885	0.187259	19.815781	19.730721
1710.062000	0.155203	0.187259	19.815781	19.730721
1713.053999	0.154885	0.187259	19.815781	19.730721
1716.067000	0.154885	0.187259	19.816097	19.730721
1719.054000	0.154885	0.187259	19.816097	19.730721
1722.062000	0.154885	0.187259	19.816097	19.730721
1725.071000	0.154885	0.187259	19.815781	19.730721
1728.054000	0.154885	0.187259	19.815781	19.731356
1731.054000	0.154885	0.187259	19.815781	19.731356
1734.063000	0.154885	0.187259	19.815781	19.730721
1737.053999	0.154885	0.187259	19.815781	19.731356
1740.063000	0.154885	0.187259	19.815781	19.730721
1743.054000	0.154885	0.187259	19.815781	19.730721
1746.062000	0.154885	0.186941	19.815781	19.731356
1749.062000	0.154885	0.187259	19.815781	19.730721
1752.054000	0.154885	0.187259	19.815781	19.730721
1755.071001	0.154885	0.187259	19.815781	19.730721
1758.054000	0.154885	0.186941	19.815781	19.730721
1761.128000	0.154885	0.187259	19.815781	19.730721
1764.163000	0.154885	0.187259	19.815781	19.730721
1767.087000	0.154885	0.187259	19.815145	19.730721
1770.079000	0.154885	0.187259	19.815781	19.730721
1773.062000	0.154885	0.187259	19.815781	19.730721
1776.055000	0.154885	0.187259	19.815781	19.730721
1779.064001	0.154885	0.187259	19.815781	19.730721
1782.066000	0.154885	0.187259	19.815781	19.730721
1785.082001	0.154885	0.187259	19.815781	19.730402
1788.058000	0.154885	0.187259	19.815781	19.730402
1791.058000	0.154885	0.187259	19.815781	19.730721
1794.113000	0.154885	0.186941	19.815781	19.730402
1797.066000	0.154885	0.186941	19.815145	19.730402
1800.066000	0.154885	0.186941	19.815781	19.730721
1803.068000	0.154885	0.187259	19.815145	19.730402
1806.067000	0.154885	0.186941	19.815781	19.730402
1809.075000	0.154885	0.186941	19.815145	19.730721
1812.059000	0.154885	0.186941	19.815781	19.730402
1815.063000	0.154885	0.187259	19.815781	19.730402
1818.063000	0.154250	0.187259	19.815145	19.730402
1821.059000	0.154885	0.187259	19.815781	19.730402
1824.071000	0.154885	0.187259	19.815145	19.730402
1827.067000	0.154885	0.186941	19.815145	19.730402
1830.126000	0.154250	0.187259	19.815145	19.730721
1833.075000	0.154885	0.186941	19.815145	19.730402
1836.059000	0.154885	0.187259	19.815145	19.730402
1839.067000	0.154250	0.186941	19.815145	19.730402
1842.067000	0.154885	0.186941	19.815145	19.730402
1845.059000	0.154250	0.187259	19.815145	19.730402
1848.072000	0.154885	0.187259	19.815145	19.730402
1851.069000	0.154250	0.187259	19.814829	19.730402
1854.070000	0.154885	0.187259	19.814829	19.730402
1857.069000	0.154885	0.186941	19.814829	19.730402
1860.069000	0.154250	0.186941	19.815145	19.730402
1863.061000	0.154885	0.187259	19.814829	19.730402
1866.074000	0.154885	0.187259	19.815145	19.730402
1869.060999	0.154250	0.186941	19.814829	19.730402
1872.065000	0.154885	0.186941	19.815145	19.730085
1875.070000	0.154885	0.186941	19.815145	19.730402
1878.069000	0.154250	0.186941	19.815145	19.730402
1881.070000	0.154250	0.186941	19.815145	19.730402
1884.069000	0.154250	0.187259	19.815145	19.730402
1887.061000	0.154885	0.186941	19.814829	19.730402
1890.069000	0.154885	0.187259	19.814829	19.730402
1893.072999	0.154885	0.186941	19.815145	19.730402
1896.060999	0.154885	0.186941	19.815145	19.730402
1899.069000	0.154885	0.186941	19.815145	19.730085
1902.065000	0.154885	0.187259	19.815145	19.730085
1905.078000	0.154885	0.187259	19.815145	19.730085
1908.061000	0.154250	0.186941	19.814829	19.730085
1911.077000	0.154250	0.186941	19.814510	19.730085
1914.086000	0.154250	0.186941	19.814829	19.730402
1917.163001	0.154250	0.186941	19.814829	19.730085
1920.062000	0.154250	0.186941	19.814829	19.730085
1923.070000	0.154885	0.186941	19.814829	19.730085
1926.070000	0.154250	0.186941	19.814829	19.730402
1929.070000	0.154250	0.186941	19.814510	19.730085
1932.061000	0.154885	0.187259	19.814510	19.730085
1935.070000	0.154885	0.186941	19.814510	19.730085
1938.070000	0.154250	0.186941	19.814829	19.729769
1941.075001	0.154250	0.186941	19.814510	19.730085
1944.062000	0.154250	0.186941	19.814829	19.730085
1947.062000	0.154250	0.186941	19.814829	19.730085
1950.070000	0.154885	0.186941	19.814829	19.730085
1953.062000	0.154250	0.186941	19.814829	19.729769
1956.070000	0.154250	0.186941	19.814510	19.730085
1959.079000	0.154250	0.186941	19.814510	19.730085
1962.070000	0.154250	0.186941	19.814510	19.729769
1965.074000	0.154250	0.186941	19.814510	19.729769
1968.070000	0.154250	0.186941	19.814510	19.729769
1971.062000	0.154250	0.186941	19.814510	19.730085
1974.078000	0.154250	0.186941	19.814829	19.730085
1977.062000	0.154250	0.186941	19.814510	19.729769
1980.070000	0.154885	0.186941	19.814510	19.729769
1983.070000	0.154250	0.186941	19.814510	19.729769
1986.062000	0.154250	0.186941	19.814510	19.729769
1989.062000	0.154250	0.186941	19.814510	19.729769
1992.079000	0.154885	0.186941	19.814510	19.729769
1995.070000	0.154250	0.186941	19.814510	19.729769
1998.070000	0.154250	0.186941	19.814829	19.729769
2001.099000	0.154250	0.186941	19.814510	19.729769
2004.071000	0.154250	0.186941	19.814510	19.729769
2007.160000	0.154250	0.186941	19.814510	19.729769
2010.071000	0.154250	0.186941	19.814829	19.729769
2013.096000	0.154250	0.186941	19.814510	19.729450
2016.075000	0.154250	0.186941	19.814510	19.729769
2019.080000	0.154250	0.186941	19.814510	19.729769
2022.072000	0.154250	0.186941	19.814510	19.729450
2025.156000	0.154250	0.186941	19.814510	19.729769
2028.071000	0.154250	0.186941	19.814510	19.729769
2031.072000	0.154250	0.186941	19.814194	19.729769
2034.139000	0.154250	0.186941	19.814194	19.729769
2037.075000	0.154250	0.186941	19.814510	19.729450
2040.067000	0.154250	0.186941	19.814510	19.729769
2043.068000	0.154250	0.186941	19.814510	19.729450
2046.072000	0.154250	0.186941	19.814510	19.729450
2049.064000	0.154250	0.186941	19.814510	19.729450
2052.073000	0.154250	0.186941	19.814510	19.729450
2055.103000	0.154250	0.186941	19.814510	19.729450
2058.073000	0.154250	0.186941	19.814510	19.729450
2061.116000	0.154250	0.186941	19.814510	19.729450
2064.075000	0.154250	0.186941	19.814510	19.729450
2067.157000	0.154250	0.186941	19.814510	19.729450
2070.105000	0.154250	0.186941	19.814194	19.729450
2073.142000	0.154250	0.186941	19.814194	19.728815
2076.078000	0.154250	0.186941	19.814194	19.729450
2079.075000	0.154250	0.186941	19.814510	19.729450
2082.075000	0.154250	0.186941	19.814194	19.729769
2085.075000	0.154250	0.186941	19.814194	19.729450
2088.104000	0.154250	0.186941	19.814194	19.729450
2091.092000	0.154250	0.186941	19.814194	19.729450
2094.071001	0.154250	0.186941	19.814194	19.729450
2097.066000	0.154250	0.186941	19.814194	19.729450
2100.067000	0.153933	0.186941	19.814194	19.729769
2103.067999	0.154250	0.186941	19.814194	19.729450
2106.098000	0.153933	0.186941	19.814194	19.729450
2109.077000	0.154250	0.186941	19.813875	19.729450
2112.081000	0.153933	0.186941	19.814194	19.729450
2115.140000	0.154250	0.186941	19.813875	19.729450
2118.069000	0.154250	0.186941	19.813875	19.729450
2121.078001	0.154250	0.186941	19.814194	19.729450
2124.069000	0.154250	0.186941	19.813875	19.729450
2127.082000	0.153933	0.186941	19.814194	19.729450
2130.081000	0.154250	0.186941	19.813875	19.729450
2133.077000	0.153933	0.186941	19.814194	19.729450
2136.078000	0.154250	0.186941	19.813875	19.729450
2139.152000	0.153933	0.186941	19.813875	19.729450
2142.081000	0.154250	0.186941	19.814194	19.729450
2145.077000	0.153933	0.186941	19.813875	19.728815
2148.078001	0.154250	0.186941	19.813875	19.729450
2151.070000	0.153933	0.186941	19.814194	19.728815
2154.078000	0.153933	0.186941	19.813875	19.728815
2157.096000	0.154250	0.186307	19.814194	19.729450
2160.080000	0.153933	0.186941	19.814194	19.728815
2163.081000	0.153933	0.186941	19.813875	19.728815
2166.081000	0.153933	0.186307	19.813875	19.728815
2169.152000	0.153933	0.186941	19.813875	19.728815
2172.073000	0.154250	0.186307	19.813875	19.728815
2175.074000	0.154250	0.186307	19.813875	19.728815
2178.091000	0.154250	0.186307	19.813875	19.728815
2181.090000	0.153933	0.186941	19.813875	19.728815
2184.083000	0.153933	0.186941	19.814194	19.728815
2187.074000	0.153933	0.186941	19.813875	19.728815
2190.082000	0.154250	0.186307	19.813875	19.728815
2193.082000	0.153933	0.186941	19.814194	19.728498
2196.095000	0.153933	0.186941	19.813875	19.728815
2199.079000	0.153933	0.186941	19.813875	19.728815
2202.083000	0.153933	0.186941	19.813875	19.728815
2205.085000	0.153933	0.186941	19.813242	19.728815
2208.085000	0.153933	0.186941	19.813875	19.728815
2211.164000	0.153933	0.186941	19.813875	19.728815
2214.190000	0.153933	0.186307	19.813875	19.728815
2217.165000	0.153933	0.186941	19.813875	19.728815
2220.156001	0.153933	0.186941	19.813875	19.728815
2223.086000	0.153933	0.186941	19.813875	19.728815
2226.087000	0.153933	0.186307	19.813875	19.728815
2229.082001	0.153933	0.186941	19.813875	19.728815
2232.078000	0.153933	0.186941	19.813875	19.728815
2235.078000	0.153933	0.186941	19.813875	19.728815
2238.174000	0.153933	0.186307	19.813875	19.728815
2241.078000	0.153933	0.186941	19.813875	19.728498
2244.086000	0.154250	0.186307	19.813875	19.728815
2247.154000	0.153933	0.186307	19.813242	19.728815
2250.078001	0.154250	0.186307	19.813875	19.728815
2253.096000	0.153933	0.186307	19.813242	19.728815
2256.086999	0.153933	0.186307	19.813875	19.728815
2259.079000	0.154250	0.186307	19.813875	19.728498
2262.088000	0.153933	0.186307	19.813242	19.728498
2265.093000	0.153933	0.186307	19.813242	19.728815
2268.164000	0.153933	0.186307	19.813875	19.728815
2271.090000	0.153933	0.186307	19.813242	19.728498
2274.091000	0.153933	0.186307	19.813242	19.728815
2277.091000	0.153933	0.186941	19.813242	19.728498
2280.083000	0.153933	0.186307	19.813242	19.728498
2283.096000	0.153933	0.186941	19.813242	19.728498
2286.116000	0.153933	0.186307	19.812923	19.728498
2289.096000	0.153933	0.186307	19.813242	19.728815
2292.091000	0.153933	0.186307	19.813242	19.728498
2295.176000	0.153933	0.186941	19.813242	19.728498
2298.091000	0.153933	0.186941	19.813242	19.728498
2301.091000	0.153933	0.186941	19.813242	19.728815
2304.091000	0.153933	0.186307	19.812923	19.728815
2307.156001	0.153933	0.186307	19.813242	19.728498
2310.091000	0.153933	0.186307	19.812923	19.728815
2313.096000	0.153933	0.186307	19.813242	19.728498
2316.083000	0.153933	0.186941	19.812923	19.728498
2319.096000	0.153933	0.186307	19.812923	19.728498
2322.091000	0.153933	0.186307	19.812923	19.728498
2325.096000	0.153933	0.186307	19.812923	19.728498
2328.087000	0.153933	0.186307	19.812607	19.728498
2331.092000	0.153933	0.186307	19.812923	19.728182
2334.095000	0.153933	0.186307	19.812923	19.728182
2337.083000	0.153933	0.186307	19.812923	19.728182
2340.091000	0.153933	0.186307	19.812923	19.728182
2343.184000	0.153933	0.186307	19.812923	19.728498
2346.091000	0.153933	0.186307	19.812923	19.728182
2349.175000	0.153933	0.186941	19.812923	19.728498
2352.099000	0.153933	0.186307	19.812923	19.728498
2355.104001	0.153933	0.186307	19.812923	19.728182
2358.084000	0.153933	0.186307	19.812607	19.728498
2361.159000	0.153933	0.186307	19.812923	19.728182
2364.085000	0.153933	0.186307	19.812923	19.728498
2367.102000	0.153933	0.186307	19.812923	19.728498
2370.085000	0.153616	0.186307	19.812923	19.728182
2373.086000	0.153933	0.186307	19.812923	19.728182
2376.086000	0.153933	0.186307	19.812923	19.728182
2379.086000	0.153933	0.186307	19.812607	19.728182
2382.094000	0.153933	0.186941	19.812607	19.728182
2385.094000	0.153933	0.186307	19.812923	19.728182
2388.086999	0.153933	0.186307	19.812923	19.728498
2391.087000	0.153933	0.186307	19.812923	19.728182
2394.195000	0.153933	0.186307	19.812923	19.728182
2397.091000	0.153933	0.186307	19.812607	19.728182
2400.095000	0.153933	0.186307	19.812923	19.728182
2403.091000	0.153933	0.186307	19.812607	19.728182
2406.166000	0.153933	0.186307	19.812607	19.728498
2409.091000	0.153933	0.186307	19.812923	19.728182
2412.096000	0.153933	0.186307	19.812607	19.727863
2415.099000	0.153933	0.186307	19.812923	19.728182
2418.092000	0.153616	0.186307	19.812607	19.727863
2421.097000	0.153616	0.186307	19.812607	19.727863
2424.088000	0.153933	0.186307	19.812923	19.728182
2427.097001	0.153933	0.186307	19.812607	19.728182
2430.100000	0.153933	0.186307	19.812923	19.727863
2433.100000	0.153616	0.186307	19.812607	19.728182
2436.159000	0.153933	0.186307	19.812607	19.727863
2439.163000	0.153933	0.186307	19.812607	19.727863
2442.121000	0.153933	0.186307	19.812607	19.727863
2445.159000	0.153933	0.186307	19.812607	19.727863
2448.112000	0.153616	0.186307	19.812607	19.727863
2451.092000	0.153616	0.186307	19.812607	19.727863
2454.105000	0.153933	0.186307	19.812607	19.727863
2457.097001	0.153933	0.186307	19.812607	19.727863
2460.093000	0.153933	0.186307	19.812607	19.727863
2463.098000	0.153933	0.186307	19.812607	19.727863
2466.097000	0.153616	0.186307	19.812607	19.727863
2469.097000	0.153616	0.186307	19.812607	19.727863
2472.089000	0.153933	0.186307	19.812923	19.727547
2475.093000	0.153933	0.186307	19.812607	19.727863
2478.177000	0.153616	0.186307	19.812607	19.727863
2481.109000	0.153616	0.186307	19.812607	19.727863
2484.097001	0.153616	0.186307	19.812607	19.727547
2487.101000	0.153933	0.186307	19.812607	19.727863
2490.202000	0.153933	0.186307	19.812607	19.727863
2493.089000	0.153616	0.186307	19.812607	19.727863
2496.147000	0.153933	0.186307	19.812607	19.727863
2499.115000	0.153616	0.186307	19.812607	19.727863
2502.090000	0.153933	0.186307	19.812607	19.727863
2505.123001	0.153616	0.186307	19.812607	19.727863
2508.099000	0.153616	0.186307	19.812288	19.727863
2511.111001	0.153616	0.186307	19.812607	19.727863
2514.099000	0.153616	0.186307	19.812288	19.727547
2517.124000	0.153933	0.186307	19.812288	19.727863
2520.095000	0.153616	0.186307	19.812288	19.727863
2523.166000	0.153616	0.186307	19.812288	19.727547
2526.091000	0.153616	0.186307	19.812288	19.727863
2529.108000	0.153616	0.186307	19.812288	19.727547
2532.104001	0.153933	0.186307	19.812288	19.727547
2535.091000	0.153616	0.186307	19.812288	19.727547
2538.104001	0.153933	0.186307	19.812288	19.727547
2541.174001	0.153616	0.186307	19.812288	19.727547
2544.124000	0.153616	0.186307	19.812288	19.727547
2547.104000	0.153616	0.186307	19.812288	19.727547
2550.157000	0.153933	0.186307	19.812288	19.727547
2553.091000	0.153616	0.186307	19.812288	19.727863
2556.136000	0.153616	0.186307	19.812288	19.727547
2559.104001	0.153616	0.186307	19.812288	19.727547
2562.095000	0.153616	0.186307	19.811972	19.727547
2565.103000	0.153616	0.186307	19.812288	19.727863
2568.103000	0.153933	0.186307	19.812288	19.727547
2571.099000	0.153616	0.186307	19.812288	19.727863
2574.100000	0.153933	0.186307	19.812288	19.727547
2577.100000	0.153933	0.186307	19.812288	19.727547
2580.100000	0.153616	0.186307	19.811972	19.727547
2583.101000	0.153616	0.186307	19.812288	19.727547
2586.091000	0.153616	0.186307	19.812288	19.727547
2589.205000	0.153616	0.185989	19.812288	19.727547
2592.101000	0.153616	0.186307	19.812288	19.727863
2595.110000	0.153616	0.185989	19.812288	19.727547
2598.102000	0.153616	0.186307	19.812288	19.727547
2601.099000	0.153616	0.186307	19.812288	19.727547
2604.115000	0.153616	0.186307	19.812288	19.727547
2607.102000	0.153616	0.186307	19.812288	19.727547
2610.094000	0.153616	0.186307	19.811972	19.726912
2613.177001	0.153616	0.185989	19.812288	19.726912
2616.118001	0.153616	0.185989	19.812607	19.727547
2619.093999	0.153616	0.186307	19.811972	19.726912
2622.102000	0.153616	0.185989	19.812288	19.727547
2625.102000	0.153616	0.186307	19.812288	19.726912
2628.098000	0.153616	0.186307	19.812288	19.726912
2631.104000	0.153616	0.186307	19.812288	19.726912
2634.109000	0.153616	0.185989	19.812288	19.726912
2637.183000	0.153616	0.186307	19.812288	19.726912
2640.096000	0.153616	0.186307	19.812288	19.726912
2643.096000	0.153616	0.186307	19.812288	19.726912
2646.196000	0.153616	0.186307	19.812288	19.727547
2649.158000	0.153616	0.186307	19.811972	19.726912
2652.126000	0.153616	0.185989	19.812288	19.726912
2655.120000	0.153616	0.186307	19.812288	19.727547
2658.108000	0.153616	0.186307	19.811972	19.727547
2661.104000	0.153616	0.185989	19.812288	19.727547
2664.105000	0.153616	0.185989	19.811972	19.726912
2667.184000	0.153616	0.186307	19.811972	19.726912
2670.112000	0.153616	0.185989	19.811972	19.726912
2673.105000	0.153616	0.185989	19.812288	19.727547
2676.119999	0.153616	0.185989	19.811972	19.727547
2679.108000	0.153616	0.185989	19.811972	19.726912
2682.104000	0.153616	0.185989	19.811972	19.726912
2685.104000	0.153616	0.186307	19.811972	19.727547
2688.104001	0.153616	0.185989	19.811972	19.727547
2691.158000	0.153616	0.185989	19.811972	19.727547
2694.104001	0.153616	0.185989	19.811972	19.727547
2697.096000	0.153616	0.185989	19.811337	19.726912
2700.096000	0.153616	0.185989	19.811972	19.727547
2703.171000	0.153616	0.185989	19.811972	19.727547
2706.109000	0.153616	0.185989	19.811337	19.726912
2709.177000	0.153616	0.185989	19.811972	19.727547
2712.106000	0.153616	0.185989	19.811972	19.726912
2715.157000	0.153616	0.185989	19.811972	19.726912
2718.102000	0.153616	0.185989	19.811972	19.726912
2721.099000	0.153616	0.185989	19.811972	19.726912
2724.107000	0.153616	0.185989	19.811972	19.726595
2727.107000	0.153616	0.185989	19.811972	19.726912
2730.112000	0.153616	0.186307	19.811972	19.726912
2733.107000	0.153616	0.185989	19.811972	19.727547
2736.132000	0.153616	0.185989	19.811337	19.726912
2739.103000	0.153616	0.185989	19.811337	19.726912
2742.107000	0.153616	0.185989	19.811337	19.726912
2745.099000	0.153616	0.185989	19.811337	19.726912
2748.098000	0.153616	0.185989	19.811337	19.726595
2751.107000	0.153616	0.185989	19.811337	19.726912
2754.197000	0.153616	0.186307	19.811337	19.726595
2757.120000	0.153616	0.185989	19.811337	19.726595
2760.108000	0.153298	0.185989	19.811337	19.726595
2763.108000	0.153616	0.185989	19.811972	19.726912
2766.108000	0.153616	0.185989	19.811337	19.726595
2769.146000	0.153616	0.185989	19.811337	19.726595
2772.108001	0.153616	0.185989	19.811337	19.726595
2775.100000	0.153616	0.185989	19.811972	19.726912
2778.108000	0.153616	0.185989	19.811972	19.726595
2781.108000	0.153616	0.185989	19.811972	19.726595
2784.108000	0.153616	0.185989	19.811337	19.726595
2787.167000	0.153616	0.185989	19.811337	19.726595
2790.105000	0.153616	0.185989	19.811337	19.726595
2793.110000	0.153616	0.185989	19.811337	19.726595
2796.102000	0.153616	0.185989	19.811337	19.726595
2799.118001	0.153616	0.185989	19.811337	19.726276
2802.110000	0.153616	0.185989	19.811972	19.726595
2805.110000	0.153616	0.185989	19.811337	19.726595
2808.177000	0.153616	0.185989	19.811337	19.726595
2811.111000	0.153616	0.185989	19.811337	19.726595
2814.103000	0.153298	0.185989	19.811337	19.726276
2817.115000	0.153616	0.186307	19.811337	19.726276
2820.120000	0.153298	0.185989	19.811337	19.726595
2823.103000	0.153298	0.185989	19.811020	19.726595
2826.116000	0.153298	0.185989	19.811337	19.726595
2829.111000	0.153616	0.185989	19.811020	19.726276
2832.111000	0.153616	0.185989	19.811337	19.726595
2835.102000	0.153298	0.185989	19.811337	19.726595
2838.111000	0.153616	0.185989	19.811337	19.726595
2841.103000	0.153616	0.185989	19.811020	19.726595
2844.111000	0.153298	0.185989	19.811020	19.726595
2847.120000	0.153298	0.185989	19.811337	19.726276
2850.111001	0.153616	0.185989	19.811337	19.726595
2853.111000	0.153298	0.185989	19.811337	19.726595
2856.103000	0.153616	0.185989	19.811020	19.726276
2859.199000	0.153298	0.185989	19.811020	19.726595
2862.115000	0.153298	0.185989	19.811020	19.726595
2865.111000	0.153616	0.185989	19.811020	19.726595
2868.136000	0.153298	0.185989	19.811020	19.726276
2871.116000	0.153616	0.185989	19.811020	19.726276
2874.111001	0.153298	0.185989	19.811020	19.726595
2877.111001	0.153298	0.185989	19.810701	19.726595
2880.112000	0.153298	0.185989	19.811020	19.726595
2883.112000	0.153298	0.185989	19.811020	19.726276
2886.117000	0.153298	0.185989	19.811020	19.726276
2889.177000	0.153616	0.185989	19.811020	19.726595
2892.119000	0.153298	0.185989	19.811020	19.726595
2895.111000	0.153298	0.185989	19.811020	19.726276
2898.107000	0.153298	0.185989	19.811020	19.726595
2901.124000	0.153298	0.185989	19.811020	19.726595
2904.116000	0.153298	0.185989	19.811020	19.726276
2907.119000	0.153616	0.185989	19.811020	19.726276
2910.124000	0.153298	0.185989	19.811020	19.726595
2913.132000	0.153616	0.185989	19.811020	19.726595
2916.220000	0.153298	0.185989	19.811020	19.726595
2919.190000	0.153298	0.185989	19.811020	19.726276
2922.116000	0.153298	0.185989	19.811020	19.726276
2925.115000	0.153298	0.185989	19.811020	19.726595
2928.117000	0.153298	0.185989	19.811020	19.726276
2931.117000	0.153298	0.185989	19.811020	19.725960
2934.108000	0.153616	0.185989	19.811020	19.726276
2937.132000	0.153616	0.185989	19.811020	19.726595
2940.116000	0.153298	0.185989	19.811020	19.726595
2943.121000	0.153298	0.185989	19.811020	19.726276
2946.183000	0.153298	0.185989	19.811020	19.726276
2949.118000	0.153298	0.185989	19.811020	19.726276
2952.118001	0.153298	0.185989	19.811020	19.726276
2955.117000	0.153298	0.185989	19.811020	19.726276
2958.119000	0.153616	0.185989	19.811020	19.726276
